SpectraSmart Spectrum 2.10.0.0
--------- Device Information -----------
Spectrum Name : ,光譜_0
Saving Time : ,2025/05/24 12:04:24
Spectro-Module Model Name :,
Spectro-Module Serial Number :,OS361AC55003443
Wavelength Start :,300
Wavelength End :,1000
Wavelength Unit :,Wavelength(nm)
Spectrum Unit :,Intensity(Counts)
MB Temperature(°C) :,NA
TEC Temperature(°C) :,NA
-----------Spectrum Setting ------------
Integration Time :,800ms
Average :,1
Boxcar :,0
Background removal :, enabled
linearity correction :, enabled
SC :, disabled
Intensity correction :, disabled
DWT denoise :, enabled
savitzky-golay :, disabled
FFT :, disabled
Running average :, disabled
Kalman :, disabled
High pass :, disabled
---------------BEGIN--------------------
Wavelength(nm)      ,   Intensity(Counts)
300.27,       62.60156
300.89,       97.44629
301.51,       125.7754
302.13,       138.3027
302.75,       122.1563
303.37,       78.15234
303.99,        11.5332
304.62,       -56.1626
305.24,      -90.46436
305.86,      -82.81494
306.48,      -40.94043
307.11,       15.40918
307.73,       52.35938
308.36,       61.00293
308.98,       50.89258
309.61,       36.56055
310.23,       42.41309
310.86,       72.41895
311.48,       113.5054
312.11,       153.6099
312.74,       174.8916
313.36,         172.46
313.99,       156.2012
314.62,       125.9756
315.25,       80.94141
315.88,       25.75977
316.51,      -39.30859
317.14,      -92.79297
317.77,      -100.8281
318.40,      -59.10254
319.03,       23.13184
319.66,       111.4312
320.29,       149.1396
320.93,       124.3877
321.56,       54.29932
322.19,      -25.66992
322.83,      -57.28711
323.46,       -26.5752
324.10,       45.83398
324.73,       131.8774
325.37,       187.7217
326.00,       198.6484
326.64,        177.292
327.27,       136.6699
327.91,           96.5
328.55,       65.61182
329.19,         40.896
329.83,       16.75879
330.46,      -14.63916
331.10,      -53.01074
331.74,      -94.04395
332.38,      -120.5439
333.02,      -107.6611
333.66,      -53.46387
334.31,       32.31592
334.95,       118.9111
335.59,       158.2817
336.23,       139.3511
336.87,       74.67188
337.52,      -3.724609
338.16,       -43.3457
338.81,      -30.66992
339.45,       19.78516
340.09,       78.92725
340.74,       100.1396
341.39,        71.9707
342.03,       9.083984
342.68,       -60.0249
343.33,      -91.01855
343.97,      -73.80859
344.62,      -22.86816
345.27,       32.37988
345.92,       45.71191
346.57,       7.703125
347.22,      -64.37793
347.87,      -140.4004
348.52,      -173.3223
349.17,      -151.4072
349.82,      -91.01855
350.47,      -15.11328
351.12,        40.1123
351.77,       62.96973
352.43,       64.12891
353.08,       53.52246
353.73,       47.17676
354.39,       49.92773
355.04,       54.08643
355.70,       56.40723
356.35,       53.38477
357.01,       43.93555
357.66,       32.27539
358.32,       17.58398
358.98,      -3.166992
359.63,      -28.67676
360.29,       -57.2959
360.95,      -81.56934
361.61,      -89.68652
362.27,      -79.76563
362.93,       -55.7998
363.59,      -27.00684
364.25,      -8.245117
364.91,      -4.010742
365.57,      -10.78809
366.23,      -22.31689
366.89,      -28.41699
367.55,      -25.29492
368.22,      -14.61035
368.88,      -1.124023
369.54,       8.004883
370.21,        10.8125
370.87,       7.745117
371.54,       7.306641
372.20,       22.94336
372.87,       55.03809
373.53,       98.25146
374.20,       134.4902
374.87,        135.064
375.53,       96.32666
376.20,       30.40527
376.87,      -39.93848
377.54,      -78.58984
378.21,      -75.50879
378.87,      -42.10547
379.54,       8.726074
380.21,       56.01807
380.88,       89.89941
381.56,       113.9624
382.23,       126.7075
382.90,       125.6963
383.57,       112.3916
384.24,       88.71191
384.92,       57.12891
385.59,       23.19141
386.26,         -8.875
386.94,       -38.8125
387.61,      -56.01855
388.29,      -45.49121
388.96,      -6.761719
389.64,       54.93311
390.31,       118.4033
390.99,       149.7021
391.67,       140.7817
392.34,        99.7998
393.02,       47.92285
393.70,       20.58545
394.38,       26.72363
395.06,       55.98926
395.74,       89.90527
396.42,       98.76074
397.10,       75.65625
397.78,       31.53125
398.46,      -16.72754
399.14,      -43.27246
399.82,      -41.27148
400.50,      -19.24805
401.19,       9.931641
401.87,       26.02344
402.55,       23.90234
403.24,       11.22852
403.92,       -2.69043
404.61,      -3.657227
405.29,        12.1709
405.98,         38.625
406.66,       70.12109
407.35,       98.99219
408.03,        120.957
408.72,       136.4741
409.41,       145.2822
410.10,       146.9248
410.79,       141.9419
411.47,       131.7393
412.16,       115.0132
412.85,       89.93262
413.54,       58.86328
414.23,       24.67383
414.92,      -2.391602
415.61,      -6.967773
416.31,       12.85742
417.00,       50.99512
417.69,       94.33887
418.38,       121.8599
419.08,        126.855
419.77,       114.0156
420.46,       89.88965
421.16,        66.0708
421.85,       47.16797
422.55,       30.86328
423.24,       16.34277
423.94,       1.933594
424.64,      -11.20508
425.33,      -18.91064
426.03,      -18.13037
426.73,      -5.700684
427.42,        18.8125
428.12,       52.52246
428.82,       94.44727
429.52,       143.5801
430.22,       196.9717
430.92,       252.4141
431.62,       302.7266
432.32,       337.6699
433.02,       355.4805
433.72,       359.3418
434.43,       358.0278
435.13,       365.8125
435.83,       388.2915
436.53,       424.9419
437.24,       472.1826
437.94,       522.3438
438.65,       575.1812
439.35,       635.7344
440.06,       711.0107
440.76,       810.5576
441.47,       935.5898
442.17,        1080.45
442.88,       1236.009
443.59,        1389.39
444.29,        1532.48
445.00,       1660.786
445.71,       1773.193
446.42,       1871.511
447.13,       1951.542
447.84,       2006.535
448.55,       2024.537
449.26,        1989.84
449.97,       1900.647
450.68,       1764.667
451.39,       1597.891
452.10,       1424.362
452.82,       1256.261
453.53,       1097.075
454.24,       944.4521
454.95,       789.9678
455.67,       636.0469
456.38,       491.1807
457.10,       371.2363
457.81,       298.2061
458.53,       274.4336
459.24,       289.6299
459.96,       322.7002
460.68,       341.0742
461.39,       334.0459
462.11,       307.5479
462.83,       272.3086
463.55,       248.1172
464.27,       240.1055
464.98,        240.167
465.70,       241.7002
466.42,        235.374
467.14,       218.5225
467.86,       196.2539
468.58,        171.876
469.31,       148.8926
470.03,        130.292
470.75,       116.9365
471.47,       110.1484
472.20,       111.8018
472.92,       122.5986
473.64,        141.874
474.37,       171.1035
475.09,       212.2764
475.82,       263.5791
476.54,       322.1523
477.27,       380.3076
477.99,       426.6016
478.72,       458.4023
479.45,       478.9541
480.17,       494.9531
480.90,       517.4941
481.63,       550.8125
482.36,        593.042
483.09,       641.4434
483.81,       691.4932
484.54,       740.6602
485.27,       788.0996
486.00,        835.792
486.73,       887.0674
487.47,       940.7393
488.20,       994.6943
488.93,       1039.437
489.66,       1060.577
490.39,       1058.068
491.13,       1040.253
491.86,       1024.366
492.59,        1036.49
493.33,       1085.917
494.06,       1169.253
494.80,       1277.868
495.53,       1395.896
496.27,       1518.222
497.00,        1648.29
497.74,       1793.004
498.48,       1963.276
499.22,       2159.693
499.95,       2376.114
500.69,       2599.401
501.43,       2810.739
502.17,       3006.853
502.91,        3195.06
503.65,       3393.023
504.39,       3627.415
505.13,       3908.947
505.87,       4237.916
506.61,       4602.625
507.35,       4981.568
508.09,       5372.938
508.83,        5785.26
509.58,       6243.691
510.32,       6786.689
511.06,       7418.075
511.81,       8120.443
512.55,       8855.614
513.30,       9564.892
514.04,       10231.32
514.79,       10868.12
515.53,       11503.58
516.28,       12185.14
517.02,        12925.9
517.77,       13712.02
518.52,       14519.54
519.27,       15310.54
520.01,       16075.11
520.76,       16823.47
521.51,       17576.31
522.26,       18367.12
523.01,       19195.41
523.76,       20035.58
524.51,       20853.28
525.26,       21599.38
526.01,       22254.61
526.76,       22826.46
527.51,        23318.5
528.27,       23742.87
529.02,       24103.72
529.77,       24392.08
530.52,       24623.77
531.28,       24822.51
532.03,       25000.49
532.79,       25174.16
533.54,        25313.7
534.30,       25366.23
535.05,        25329.7
535.81,        25215.5
536.56,       25114.71
537.32,       25170.62
538.08,       25400.59
538.83,       25759.45
539.59,       26096.63
540.35,       26170.42
541.11,       25935.92
541.87,       25474.39
542.63,       24956.59
543.39,       24657.66
544.15,       24646.39
544.91,       24833.27
545.67,       25085.68
546.43,       25191.58
547.19,        25081.6
547.95,       24814.45
548.71,       24453.14
549.48,        24098.2
550.24,       23780.68
551.00,       23462.36
551.77,       23106.75
552.53,       22663.63
553.29,       22128.18
554.06,        21536.1
554.82,       20932.14
555.59,       20377.72
556.36,       19888.87
557.12,       19441.63
557.89,       19010.57
558.66,       18555.45
559.42,       18057.77
560.19,        17527.4
560.96,       16955.69
561.73,       16329.61
562.50,       15654.66
563.27,       14939.31
564.04,       14214.22
564.81,       13529.27
565.58,       12900.79
566.35,       12321.63
567.12,       11777.74
567.89,       11241.44
568.66,       10702.31
569.43,       10167.34
570.21,       9640.061
570.98,       9125.032
571.75,       8625.102
572.53,       8140.079
573.30,       7665.566
574.07,       7196.581
574.85,       6735.405
575.62,       6285.132
576.40,       5865.044
577.17,       5504.848
577.95,       5206.532
578.73,       4957.693
579.50,       4727.824
580.28,       4467.439
581.06,       4165.869
581.84,       3840.713
582.62,       3514.034
583.39,        3223.12
584.17,       2979.539
584.95,       2767.441
585.73,       2587.036
586.51,       2439.287
587.29,       2316.727
588.07,       2219.115
588.86,       2117.691
589.64,        1964.71
590.42,       1755.611
591.20,       1508.653
591.98,       1264.764
592.77,       1091.218
593.55,       1005.126
594.33,       983.7773
595.12,        1002.22
595.90,       1019.817
596.69,       1017.243
597.47,       1001.351
598.26,       965.5664
599.04,       901.5059
599.83,       811.5049
600.62,       698.9658
601.40,       582.5547
602.19,       494.0127
602.98,       450.2695
603.77,       461.1172
604.55,       533.4639
605.34,       664.9863
606.13,       873.5391
606.92,        1178.05
607.71,        1572.78
608.50,       2086.894
609.29,       2694.307
610.08,       3214.071
610.87,       3670.099
611.67,        4350.78
612.46,       5099.511
613.25,       5376.394
614.04,       5089.982
614.84,       4511.506
615.63,       3721.797
616.42,       2686.956
617.22,       1638.535
618.01,       937.0859
618.81,       663.4414
619.60,       763.7119
620.40,       1074.412
621.19,       1232.473
621.99,       1196.264
622.78,       1202.143
623.58,       1218.358
624.38,       1236.502
625.18,       1259.245
625.97,       1067.531
626.77,        1246.56
627.57,       2732.142
628.37,       5569.959
629.17,       9731.485
629.97,       13843.46
630.77,       15194.82
631.57,       13814.79
632.37,       11270.54
633.17,       8700.646
633.97,       8370.244
634.77,       9661.782
635.58,       8456.708
636.38,       4913.657
637.18,        2674.95
637.98,       2052.553
638.79,       1419.301
639.59,        649.334
640.40,       64.74902
641.20,      -356.7295
642.00,       -532.644
642.81,      -418.3779
643.62,      -107.1396
644.42,       352.0342
645.23,       964.5273
646.03,       1558.563
646.84,       1848.741
647.65,       1774.238
648.46,        1412.09
649.26,         904.29
650.07,       491.9463
650.88,       258.8486
651.69,       151.8662
652.50,       123.7783
653.31,       87.50488
654.12,       14.41699
654.93,      -53.75977
655.74,      -107.3535
656.55,      -143.6045
657.36,      -163.1074
658.17,       -184.209
658.98,      -210.0308
659.80,      -234.6416
660.61,      -257.6963
661.42,       -276.083
662.23,      -297.8516
663.05,      -337.0967
663.86,      -392.4404
664.68,      -458.4648
665.49,      -509.0068
666.31,       -502.752
667.12,      -435.7803
667.94,      -325.5625
668.75,      -210.6274
669.57,      -152.2261
670.39,        -166.21
671.20,      -233.9893
672.02,      -328.9355
672.84,      -406.7939
673.66,       -451.123
674.47,      -472.2861
675.29,      -474.6006
676.11,      -466.8311
676.93,       -451.083
677.75,       -418.668
678.57,      -372.8242
679.39,      -321.1416
680.21,      -267.9473
681.03,      -221.3174
681.85,      -173.4092
682.68,      -107.8682
683.50,      -27.43164
684.32,       60.19336
685.14,       123.0283
685.96,       111.0928
686.79,       19.95605
687.61,       -128.416
688.44,      -287.1836
689.26,      -382.1685
690.08,      -393.3013
690.91,      -341.8721
691.73,      -257.2466
692.56,      -189.3735
693.39,      -155.9629
694.21,      -142.1807
695.04,      -143.8594
695.87,      -154.1113
696.69,      -168.3398
697.52,       -192.793
698.35,      -218.0088
699.18,      -225.6846
700.00,      -212.3154
700.83,      -179.9131
701.66,      -142.7813
702.49,       -126.123
703.32,       -135.355
704.15,      -163.6724
704.98,      -194.4912
705.81,      -200.8652
706.64,      -177.2568
707.47,      -133.0254
708.31,      -86.29883
709.14,      -65.41504
709.97,      -77.24316
710.80,      -112.4189
711.64,      -154.3662
712.47,      -177.2725
713.30,      -173.2871
714.14,      -148.7612
714.97,      -116.2578
715.81,      -95.84375
716.64,      -92.58691
717.48,      -100.8071
718.31,      -107.1797
719.15,      -90.81445
719.98,      -49.09473
720.82,       8.595703
721.66,       63.52051
722.49,       86.92676
723.33,       72.56543
724.17,       30.66309
725.01,      -22.23438
725.84,      -59.58984
726.68,      -73.21973
727.52,      -71.15479
728.36,      -60.87305
729.20,      -54.41406
730.04,      -56.91309
730.88,      -64.42725
731.72,      -76.51123
732.56,      -93.97412
733.40,      -114.6929
734.25,      -136.1919
735.09,      -157.6353
735.93,      -176.5098
736.77,       -191.665
737.61,      -206.2305
738.46,      -210.8916
739.30,      -191.3325
740.14,      -148.4458
740.99,      -87.01318
741.83,      -33.85449
742.68,      -31.57422
743.52,      -86.33008
744.37,      -183.7397
745.21,      -286.9399
746.06,      -336.3447
746.90,      -317.6729
747.75,      -249.0215
748.60,      -161.6484
749.44,      -106.7275
750.29,      -99.07227
751.14,      -122.7988
751.99,      -159.3369
752.84,      -179.2939
753.68,      -173.2578
754.53,      -151.5356
755.38,      -123.1733
756.23,      -101.0039
757.08,       -88.9585
757.93,      -81.51514
758.78,      -73.07129
759.63,      -56.19238
760.48,      -29.95996
761.33,       0.671875
762.19,       28.94336
763.04,       45.69336
763.89,       47.68848
764.74,        37.0752
765.59,       18.12402
766.45,      -2.745117
767.30,      -21.75293
768.15,      -37.31836
769.01,      -52.27539
769.86,      -71.15234
770.72,      -94.45996
771.57,      -122.6357
772.43,      -143.3535
773.28,      -138.0156
774.14,      -104.9834
774.99,      -48.57715
775.85,       3.668945
776.71,       8.021484
777.56,      -42.27539
778.42,      -134.1816
779.28,      -227.1367
780.14,      -255.6504
780.99,       -206.665
781.85,      -101.5977
782.71,       15.46973
783.57,       73.53271
784.43,       54.94824
785.29,      -17.26953
786.15,      -108.3867
787.01,      -162.5781
787.87,      -163.8564
788.73,      -131.0107
789.59,      -83.53613
790.45,      -51.99854
791.31,      -45.70117
792.18,      -51.64502
793.04,      -63.17383
793.90,      -71.48682
794.76,      -73.02344
795.63,      -74.38818
796.49,      -71.95215
797.35,      -57.97266
798.22,      -33.08496
799.08,       1.469727
799.95,       31.69824
800.81,       34.40039
801.68,       6.182617
802.54,      -45.61133
803.41,      -101.3242
804.27,      -128.8418
805.14,      -120.9912
806.00,      -88.09375
806.87,      -47.64063
807.74,      -28.22412
808.61,      -37.46143
809.47,      -65.00781
810.34,      -100.1655
811.21,      -126.5474
812.08,      -137.3618
812.95,      -137.0093
813.82,      -126.9888
814.68,      -108.8799
815.55,      -85.40088
816.42,      -58.15381
817.29,      -28.42334
818.16,       1.079102
819.04,       27.81445
819.91,       51.52832
820.78,       63.77051
821.65,       52.54102
822.52,        17.7168
823.39,      -36.17969
824.27,      -90.75098
825.14,      -117.0728
826.01,       -108.313
826.88,      -71.03857
827.76,      -25.29785
828.63,      -4.157227
829.50,      -16.05322
830.38,      -52.68018
831.25,      -93.72412
832.13,      -106.5366
833.00,      -83.87744
833.88,       -35.7085
834.75,       14.64941
835.63,       30.50342
836.51,        4.76416
837.38,      -49.71484
838.26,      -106.1533
839.14,      -122.2656
840.01,      -89.13379
840.89,      -22.28125
841.77,       53.08008
842.65,       97.11621
843.53,       98.67969
844.40,       70.73633
845.28,        27.9541
846.16,      -5.916992
847.04,      -22.92822
847.92,       -31.4292
848.80,      -33.73145
849.68,      -33.61621
850.56,      -31.78516
851.44,      -21.48242
852.32,       -7.90332
853.21,      -1.242188
854.09,      -2.419434
854.97,      -12.19189
855.85,      -13.58301
856.73,       21.94141
857.62,       95.58691
858.50,       195.3979
859.38,       287.8457
860.26,        320.123
861.15,       281.5737
862.03,        189.521
862.92,       77.96582
863.80,        2.29248
864.69,      -21.63477
865.57,       -9.57373
866.46,       18.58984
867.34,       29.57715
868.23,       13.75488
869.11,      -15.21094
870.00,      -49.01953
870.89,      -76.26172
871.77,      -91.88965
872.66,      -101.6743
873.55,      -103.1455
874.43,      -90.63574
875.32,      -65.02002
876.21,      -27.85303
877.10,       11.35742
877.99,       36.57861
878.88,       43.96045
879.77,       36.86914
880.65,       23.57666
881.54,       18.97363
882.43,       25.75879
883.32,       37.56055
884.21,       48.63477
885.10,       48.86816
886.00,       37.07324
886.89,       21.89258
887.78,       1.443359
888.67,      -28.09668
889.56,      -66.17383
890.45,      -114.7451
891.35,      -151.6621
892.24,      -151.9375
893.13,      -117.8608
894.02,      -22.59375
894.92,       113.5923
895.81,       77.85742
896.71,      -136.1812
897.60,      -141.1719
898.49,       143.8242
899.39,      -445.5713
900.28,      -31.93359
901.18,      -56.65723
902.07,       9.933594
902.97,       42.60254
903.87,       41.14355
904.76,       12.80371
905.66,      -42.44336
906.55,      -73.12549
907.45,      -73.54395
908.35,      -61.68164
909.25,      -39.51855
910.14,      -9.207031
911.04,       24.63574
911.94,       66.38672
912.84,       96.25342
913.74,        81.4873
914.63,        19.9209
915.53,      -78.73633
916.43,      -174.0762
917.33,       -200.666
918.23,      -145.6943
919.13,      -28.86914
920.03,        103.332
920.93,       175.3013
921.83,       167.6973
922.73,       102.3428
923.63,       17.57422
924.54,       -24.2041
925.44,      -6.794922
926.34,       48.46289
927.24,       112.1816
928.14,       139.0127
929.05,       116.6694
929.95,       61.83838
930.85,      -3.768066
931.76,      -48.07031
932.66,      -60.46436
933.56,      -49.36914
934.47,      -29.10107
935.37,      -21.75537
936.28,          -32.5
937.18,      -54.20068
938.08,       -70.3208
938.99,      -55.43701
939.90,      -6.756348
940.80,       63.72363
941.71,       132.3232
942.61,       162.8701
943.52,       146.8125
944.43,       96.33008
945.33,       31.13281
946.24,      -17.35742
947.15,      -37.98438
948.05,      -37.85449
948.96,      -25.50586
949.87,      -14.66553
950.78,      -11.12012
951.69,      -12.60938
952.59,      -13.00293
953.50,      -3.919922
954.41,       15.43262
955.32,        43.2998
956.23,       63.49121
957.14,       51.02051
958.05,       5.003906
958.96,      -64.36914
959.87,      -126.4775
960.78,      -132.0269
961.69,      -73.92773
962.60,       26.69434
963.51,       137.3428
964.42,       205.6167
965.34,       216.1167
966.25,       187.6738
967.16,       129.3296
968.07,       56.21338
968.99,      -19.01904
969.90,      -98.92041
970.81,      -159.6982
971.72,      -163.0879
972.64,      -105.3564
973.55,       1.367188
974.46,       121.2051
975.38,       193.9937
976.29,       203.2583
977.21,       164.5723
978.12,       100.4072
979.04,       49.96289
979.95,       26.07129
980.87,       16.00586
981.78,       14.15137
982.70,       11.83887
983.61,       5.634766
984.53,        2.71582
985.45,     -0.8286133
986.36,      -13.84863
987.28,      -37.05029
988.20,      -70.14746
989.11,       -101.373
990.03,      -110.7803
990.95,      -94.85645
991.87,      -58.50488
992.79,      -19.37207
993.70,      -6.135742
994.62,      -24.31836
995.54,      -65.16992
996.46,      -107.3779
997.38,      -116.4849
998.30,      -85.59766
999.22,      -27.27246
