SpectraSmart Spectrum 2.10.0.0
--------- Device Information -----------
Spectrum Name : ,光譜_0
Saving Time : ,2025/05/24 12:45:50
Spectro-Module Model Name :,
Spectro-Module Serial Number :,OS361AC55003443
Wavelength Start :,300
Wavelength End :,1000
Wavelength Unit :,Wavelength(nm)
Spectrum Unit :,Intensity(Counts)
MB Temperature(°C) :,NA
TEC Temperature(°C) :,NA
-----------Spectrum Setting ------------
Integration Time :,800ms
Average :,1
Boxcar :,0
Background removal :, enabled
linearity correction :, enabled
SC :, disabled
Intensity correction :, disabled
DWT denoise :, enabled
savitzky-golay :, disabled
FFT :, disabled
Running average :, disabled
Kalman :, disabled
High pass :, disabled
---------------BEGIN--------------------
Wavelength(nm)      ,   Intensity(Counts)
300.27,       31.14551
300.89,       56.32715
301.51,       92.49512
302.13,       119.6914
302.75,       105.7783
303.37,       48.04395
303.99,      -38.04395
304.62,      -125.6563
305.24,      -172.2466
305.86,        -166.75
306.48,      -124.8223
307.11,      -58.92383
307.73,       10.26465
308.36,       70.93262
308.98,        127.459
309.61,       165.7012
310.23,       163.7183
310.86,       120.6875
311.48,       42.91113
312.11,      -42.85352
312.74,      -91.77051
313.36,      -92.35059
313.99,      -55.54199
314.62,      -2.773438
315.25,       29.24512
315.88,       29.55957
316.51,       8.670898
317.14,      -20.75488
317.77,      -38.51172
318.40,      -38.89648
319.03,      -29.49512
319.66,      -19.04004
320.29,      -20.24414
320.93,      -35.14453
321.56,      -56.83008
322.19,      -76.70313
322.83,      -82.08398
323.46,       -70.5293
324.10,      -48.88672
324.73,       -21.9248
325.37,       3.203125
326.00,       22.50977
326.64,        38.5293
327.27,       44.89648
327.91,       31.54492
328.55,     -0.6425781
329.19,      -47.55469
329.83,      -93.15674
330.46,      -111.3438
331.10,      -97.08545
331.74,      -58.94922
332.38,      -12.31055
333.02,       17.04004
333.66,       21.78027
334.31,       10.68066
334.95,      -10.12646
335.59,      -30.46436
336.23,      -45.27344
336.87,      -58.44727
337.52,      -64.65039
338.16,       -54.6416
338.81,        -28.625
339.45,       10.52539
340.09,       50.49219
340.74,       70.73438
341.39,       66.37988
342.03,         43.021
342.68,       11.48047
343.33,      -10.19043
343.97,      -15.92871
344.62,      -9.610352
345.27,       3.209961
345.92,       13.13574
346.57,       17.70898
347.22,       20.19629
347.87,       25.53027
348.52,        41.1377
349.17,       66.93457
349.82,       97.31641
350.47,       124.4629
351.12,       137.2041
351.77,       132.3613
352.43,       114.0371
353.08,       86.05273
353.73,        54.2832
354.39,       23.35449
355.04,      -5.399414
355.70,      -28.08008
356.35,      -39.01074
357.01,      -37.56934
357.66,         -26.75
358.32,      -8.008789
358.98,       15.55664
359.63,       40.52344
360.29,       66.57129
360.95,       84.05957
361.61,       78.58691
362.27,       49.21875
362.93,      0.8857422
363.59,      -49.55273
364.25,       -74.5459
364.91,      -67.91895
365.57,      -37.61914
366.23,        1.59668
366.89,       24.50488
367.55,       24.94043
368.22,        12.4248
368.88,       -5.74707
369.54,      -17.05078
370.21,      -18.57715
370.87,      -19.53418
371.54,      -15.84375
372.20,     -0.5302734
372.87,        25.8457
373.53,       66.28809
374.20,        97.3584
374.87,       80.83496
375.53,       13.41992
376.20,      -94.16602
376.87,      -194.3301
377.54,      -210.5264
378.21,      -129.9941
378.87,        22.1582
379.54,       184.5654
380.21,       258.3447
380.88,       220.3931
381.56,       101.8667
382.23,      -42.78174
382.90,      -125.4531
383.57,      -121.5313
384.24,      -58.71484
384.92,       27.83496
385.59,       82.08301
386.26,       87.49414
386.94,       64.51563
387.61,       31.60352
388.29,         16.125
388.96,       25.56445
389.64,       45.87402
390.31,       68.89355
390.99,       84.38477
391.67,       88.46289
392.34,       88.11328
393.02,        80.2085
393.70,       58.28271
394.38,       23.80811
395.06,      -22.17773
395.74,      -63.37988
396.42,      -73.31934
397.10,      -48.22363
397.78,              4
398.46,       59.10449
399.14,       77.56445
399.82,       50.74414
400.50,      -9.194336
401.19,      -78.33691
401.87,      -117.6934
402.55,      -117.0869
403.24,      -88.94922
403.92,      -50.55176
404.61,      -29.67676
405.29,      -33.98633
405.98,      -52.97363
406.66,      -76.80176
407.35,      -90.71582
408.03,      -89.78613
408.72,      -80.16211
409.41,       -64.2334
410.10,      -44.80859
410.79,      -24.04395
411.47,     -0.4277344
412.16,       22.38574
412.85,       37.96094
413.54,             45
414.23,       43.99609
414.92,       40.33398
415.61,       43.44727
416.31,       55.13672
417.00,       72.44922
417.69,        88.0752
418.38,       90.74805
419.08,        77.1626
419.77,       49.45117
420.46,       15.59082
421.16,      -11.92969
421.85,      -29.33887
422.55,       -37.4248
423.24,      -46.36133
423.94,      -73.05176
424.64,      -118.4355
425.33,      -175.3828
426.03,      -223.6782
426.73,        -231.79
427.42,       -194.833
428.12,      -125.0928
428.82,      -46.44336
429.52,       3.024414
430.22,       12.89355
430.92,      -5.236328
431.62,      -36.99512
432.32,       -58.4707
433.02,      -61.18164
433.72,       -53.0752
434.43,       -36.5498
435.13,      -14.49512
435.83,       9.549805
436.53,       36.51758
437.24,       62.33496
437.94,       78.01367
438.65,       83.80762
439.35,       86.30664
440.06,       86.28809
440.76,       86.33301
441.47,       88.33984
442.17,       86.60156
442.88,       97.68945
443.59,       148.2637
444.29,       236.7227
445.00,          352.5
445.71,       449.7314
446.42,       456.1299
447.13,       359.1172
447.84,       181.2119
448.55,      -20.58984
449.26,      -153.3945
449.97,       -193.749
450.68,      -168.0762
451.39,      -122.1729
452.10,      -131.8857
452.82,       -216.085
453.53,      -345.9014
454.24,      -488.5928
454.95,      -594.3428
455.67,      -646.2705
456.38,      -660.7119
457.10,      -649.2832
457.81,       -629.042
458.53,      -607.7012
459.24,      -579.0029
459.96,       -543.334
460.68,      -503.5166
461.39,       -460.459
462.11,      -416.7715
462.83,       -374.002
463.55,       -331.166
464.27,      -289.3975
464.98,       -252.208
465.70,      -216.5645
466.42,      -177.2588
467.14,      -134.5889
467.86,      -88.62793
468.58,      -51.61035
469.31,      -43.66406
470.03,      -65.06836
470.75,      -106.1172
471.47,      -143.2168
472.20,      -139.4912
472.92,      -86.63672
473.64,       3.183594
474.37,        109.292
475.09,       198.3555
475.82,       257.7607
476.54,       293.3242
477.27,       312.0957
477.99,       326.5908
478.72,       341.1104
479.45,       351.8594
480.17,       352.5205
480.90,       334.8945
481.63,       299.1523
482.36,         250.04
483.09,       203.5537
483.81,       182.7734
484.54,       192.4561
485.27,       227.5879
486.00,       265.9063
486.73,       271.4561
487.47,       236.5244
488.20,       170.2119
488.93,       100.2979
489.66,       71.82813
490.39,       93.80371
491.13,       151.8604
491.86,       213.4951
492.59,       226.9863
493.33,         181.54
494.06,        95.5166
494.80,       2.055664
495.53,      -46.64063
496.27,       -36.4502
497.00,       16.86914
497.74,       89.74707
498.48,       143.8213
499.22,       169.0293
499.95,       179.9668
500.69,       191.1523
501.43,       224.7559
502.17,       286.6904
502.91,       365.2275
503.65,       454.2266
504.39,        546.748
505.13,       636.1553
505.87,       721.9912
506.61,       796.9326
507.35,        848.792
508.09,       877.9766
508.83,       893.1084
509.58,       903.4219
510.32,       922.9912
511.06,       961.3994
511.81,       1019.608
512.55,       1107.773
513.30,       1240.388
514.04,       1414.515
514.79,       1618.294
515.53,       1832.314
516.28,       2026.138
517.02,       2187.598
517.77,       2322.658
518.52,       2427.853
519.27,       2500.787
520.01,       2548.447
520.76,       2575.447
521.51,       2607.167
522.26,       2684.472
523.01,       2814.874
523.76,       2985.645
524.51,       3173.923
525.26,       3339.286
526.01,        3469.99
526.76,       3580.798
527.51,        3673.75
528.27,       3753.852
529.02,       3826.758
529.77,       3886.045
530.52,       3956.386
531.28,       4078.648
532.03,       4255.996
532.79,       4477.154
533.54,       4692.092
534.30,         4819.5
535.05,       4843.032
535.81,       4785.562
536.56,        4704.56
537.32,        4694.53
538.08,       4776.679
538.83,       4919.717
539.59,       5071.167
540.35,       5146.608
541.11,       5124.805
541.87,       5036.822
542.63,       4919.067
543.39,        4828.27
544.15,       4783.336
544.91,        4765.38
545.67,        4764.24
546.43,       4764.025
547.19,       4758.174
547.95,       4756.838
548.71,       4751.999
549.48,       4728.979
550.24,       4684.361
551.00,       4614.071
551.77,       4539.184
552.53,       4495.799
553.29,        4489.38
554.06,       4513.221
554.82,       4525.191
555.59,       4457.491
556.36,       4300.058
557.12,       4073.758
557.89,        3843.15
558.66,       3711.718
559.42,       3698.797
560.19,       3769.318
560.96,       3849.676
561.73,       3821.831
562.50,       3657.241
563.27,       3395.245
564.04,       3095.821
564.81,       2854.663
565.58,       2701.782
566.35,        2609.26
567.12,       2546.493
567.89,        2464.89
568.66,       2348.814
569.43,       2216.256
570.21,       2082.813
570.98,       1969.592
571.75,       1881.851
572.53,           1809
573.30,       1737.266
574.07,       1647.915
574.85,       1537.766
575.62,        1415.58
576.40,       1295.925
577.17,       1201.085
577.95,        1135.86
578.73,       1090.643
579.50,       1055.009
580.28,       1012.802
581.06,       956.9424
581.84,       891.4111
582.62,       813.9727
583.39,       721.2979
584.17,       615.7646
584.95,       499.8662
585.73,       383.5957
586.51,       283.5918
587.29,       204.3799
588.07,       142.0156
588.86,       91.77539
589.64,       44.28223
590.42,      -4.279297
591.20,      -50.46973
591.98,      -97.56152
592.77,      -151.1201
593.55,      -210.1025
594.33,      -272.6484
595.12,      -329.6201
595.90,      -364.7949
596.69,      -376.8779
597.47,      -374.8203
598.26,      -366.7227
599.04,      -366.0947
599.83,        -377.54
600.62,       -393.584
601.40,      -421.2012
602.19,       -471.457
602.98,      -540.5654
603.77,      -623.0391
604.55,       -687.542
605.34,      -685.6191
606.13,      -608.0303
606.92,      -467.6221
607.71,      -306.8545
608.50,       -193.749
609.29,      -149.1758
610.08,       -164.168
610.87,       -199.668
611.67,      -189.2695
612.46,      -122.1582
613.25,      -20.98828
614.04,       56.50879
614.84,       19.81348
615.63,      -143.6563
616.42,      -395.5205
617.22,      -662.0811
618.01,      -827.9219
618.81,       -863.668
619.60,      -805.7939
620.40,      -704.0049
621.19,      -641.5059
621.99,      -642.4648
622.78,      -673.2793
623.58,       -720.165
624.38,      -762.9873
625.18,      -787.9561
625.97,      -807.2168
626.77,      -793.3877
627.57,      -698.3086
628.37,      -522.6318
629.17,      -286.5527
629.97,      -49.52441
630.77,       92.46191
631.57,       114.6162
632.37,       41.30371
633.17,      -82.67285
633.97,      -180.1348
634.77,      -227.5361
635.58,      -247.2773
636.38,      -258.8506
637.18,      -295.1074
637.98,      -363.2607
638.79,      -441.3018
639.59,      -521.7236
640.40,       -598.416
641.20,      -664.2725
642.00,       -722.834
642.81,      -758.2129
643.62,      -743.2383
644.42,      -678.3711
645.23,      -576.2246
646.03,      -468.6455
646.84,      -406.9619
647.65,      -403.7129
648.46,      -443.3369
649.26,      -504.6035
650.07,      -550.6768
650.88,      -569.0781
651.69,      -572.5732
652.50,       -560.854
653.31,      -533.9365
654.12,      -495.9253
654.93,      -443.5459
655.74,      -396.5947
656.55,      -388.7959
657.36,      -424.6211
658.17,      -495.2471
658.98,      -569.1846
659.80,      -594.0566
660.61,      -559.0229
661.42,      -480.5342
662.23,      -390.3477
663.05,       -340.668
663.86,      -344.1787
664.68,      -382.3564
665.49,       -433.082
666.31,      -460.6904
667.12,      -454.9414
667.94,      -431.2793
668.75,      -396.2705
669.57,      -358.8232
670.39,      -325.9785
671.20,      -293.8281
672.02,      -275.0439
672.84,       -291.752
673.66,      -343.5859
674.47,      -420.3623
675.29,       -498.708
676.11,      -539.8105
676.93,      -534.5293
677.75,      -497.1152
678.57,      -438.8145
679.39,      -379.5635
680.21,        -329.25
681.03,      -280.7363
681.85,      -249.0908
682.68,      -257.9316
683.50,      -307.1602
684.32,       -390.918
685.14,      -473.0088
685.96,      -493.6123
686.79,      -441.7637
687.61,      -335.8447
688.44,       -218.249
689.26,       -158.415
690.08,      -174.2241
690.91,      -244.5562
691.73,       -336.248
692.56,      -396.0659
693.39,      -406.7344
694.21,       -382.085
695.04,       -341.167
695.87,      -314.1689
696.69,      -309.0439
697.52,      -315.2139
698.35,      -314.7471
699.18,      -281.0693
700.00,      -211.2227
700.83,      -118.9355
701.66,      -29.70898
702.49,       18.59082
703.32,       16.43652
704.15,      -24.56445
704.98,      -83.15088
705.81,      -125.1021
706.64,      -139.1729
707.47,      -133.0479
708.31,      -118.5361
709.14,      -115.4951
709.97,      -128.5117
710.80,       -149.585
711.64,      -167.6504
712.47,      -166.3066
713.30,      -143.6572
714.14,       -109.208
714.97,      -75.69434
715.81,      -61.60059
716.64,      -72.58691
717.48,      -102.2959
718.31,      -144.9492
719.15,      -191.6875
719.98,      -235.9336
720.82,      -276.1309
721.66,      -307.5693
722.49,      -323.4453
723.33,      -322.3242
724.17,      -306.8203
725.01,      -276.9092
725.84,      -233.9688
726.68,      -182.0752
727.52,      -123.2578
728.36,      -71.55469
729.20,       -47.8418
730.04,      -55.35498
730.88,      -88.63086
731.72,      -128.0864
732.56,      -141.2285
733.40,      -120.3296
734.25,      -74.32715
735.09,      -21.13818
735.93,       9.458496
736.77,       9.922363
737.61,      -9.720215
738.46,      -35.84082
739.30,      -47.06299
740.14,      -37.40723
740.99,      -14.77197
741.83,       12.10645
742.68,       30.38232
743.52,       35.33691
744.37,       30.37109
745.21,       19.43555
746.06,       8.571289
746.90,     -0.6621094
747.75,      -10.31152
748.60,       -23.8623
749.44,      -46.88086
750.29,      -78.06641
751.14,      -111.1816
751.99,      -139.4922
752.84,      -153.5273
753.68,      -150.2402
754.53,      -133.8164
755.38,      -103.6035
756.23,      -58.68652
757.08,      -3.286133
757.93,       58.96875
758.78,       113.7998
759.63,       139.6895
760.48,       132.0938
761.33,       96.35449
762.19,       47.23438
763.04,       9.878906
763.89,      -8.077148
764.74,      -11.96875
765.59,      -9.823242
766.45,      -16.46484
767.30,      -34.11133
768.15,      -53.78809
769.01,      -69.57129
769.86,      -73.36816
770.72,      -62.97656
771.57,      -44.96582
772.43,      -17.67578
773.28,       23.19531
774.14,       73.25488
774.99,       127.4707
775.85,       168.3896
776.71,       169.0732
777.56,       125.4912
778.42,       48.27051
779.28,       -42.6748
780.14,      -115.6182
780.99,      -157.9102
781.85,      -173.6123
782.71,      -168.1533
783.57,      -152.1543
784.43,      -131.1563
785.29,      -104.9414
786.15,      -70.88867
787.01,      -25.84668
787.87,       27.87695
788.73,       87.06738
789.59,       133.6494
790.45,       141.8838
791.31,       108.4375
792.18,       39.94727
793.04,      -31.80176
793.90,      -55.99902
794.76,      -22.00098
795.63,        57.4834
796.49,       143.3701
797.35,       171.6836
798.22,       129.0713
799.08,          35.75
799.95,      -65.26367
800.81,       -105.126
801.68,      -68.39941
802.54,       21.24902
803.41,       123.8789
804.27,       176.1992
805.14,        161.875
806.00,       102.7666
806.87,        27.3374
807.74,      -19.56689
808.61,      -24.50049
809.47,      -3.499023
810.34,       30.04297
811.21,       55.91504
812.08,       66.55371
812.95,       70.33887
813.82,       68.00439
814.68,       59.07666
815.55,       44.96289
816.42,       23.52148
817.29,      0.7919922
818.16,      -11.78027
819.04,      -12.39453
819.91,      -3.694336
820.78,        5.47168
821.65,     0.08984375
822.52,       -22.8252
823.39,      -57.76758
824.27,      -95.20313
825.14,      -120.4707
826.01,      -128.3516
826.88,      -121.4551
827.76,      -106.0356
828.63,      -91.94336
829.50,      -82.97266
830.38,       -79.0918
831.25,      -72.89453
832.13,      -52.58838
833.00,      -17.78809
833.88,       27.37891
834.75,       64.34668
835.63,       64.22852
836.51,       23.80664
837.38,      -46.07129
838.26,      -117.5762
839.14,      -145.9912
840.01,      -122.1543
840.89,      -61.87109
841.77,       10.07813
842.65,       53.06738
843.53,       55.53613
844.40,       32.16016
845.28,      -7.481445
846.16,      -47.99316
847.04,      -81.22461
847.92,      -112.9844
848.80,      -133.6602
849.68,      -126.8281
850.56,       -92.4707
851.44,      -35.56738
852.32,       22.98926
853.21,       48.30469
854.09,       32.26758
854.97,      -15.38086
855.85,      -76.19971
856.73,      -119.3213
857.62,      -134.8643
858.50,      -130.5483
859.38,      -115.6211
860.26,      -105.4854
861.15,      -104.6025
862.03,       -106.918
862.92,      -106.3057
863.80,       -94.4209
864.69,      -69.76172
865.57,      -36.99023
866.46,      -3.401367
867.34,        21.0791
868.23,       33.07422
869.11,        33.9668
870.00,       29.75684
870.89,       30.45703
871.77,       38.05762
872.66,        50.0127
873.55,       58.45508
874.43,       50.23828
875.32,       25.06348
876.21,      -9.185547
877.10,      -41.24414
877.99,      -53.41602
878.88,      -42.25586
879.77,      -17.03223
880.65,       18.50293
881.54,       57.99707
882.43,       96.40332
883.32,       136.9453
884.21,       163.6836
885.10,       151.6914
886.00,       99.85742
886.89,       15.15332
887.78,       -68.3877
888.67,      -95.15039
889.56,      -55.40234
890.45,       33.02734
891.35,       130.0947
892.24,       169.9551
893.13,       137.4658
894.02,       55.91504
894.92,      -43.67676
895.81,      -111.3691
896.71,       -131.125
897.60,      -119.8838
898.49,       -86.9834
899.39,      -46.70215
900.28,      -7.966797
901.18,       33.83105
902.07,       68.97266
902.97,       80.05273
903.87,        65.3877
904.76,       29.74121
905.66,      -13.39941
906.55,      -39.95313
907.45,      -42.95703
908.35,      -29.41797
909.25,      -3.644531
910.14,       26.10938
911.04,       54.91406
911.94,       85.21387
912.84,       108.9121
913.74,       113.0947
914.63,       95.93262
915.53,       59.46582
916.43,       17.52148
917.33,      -6.600586
918.23,       -7.09668
919.13,       11.29785
920.03,        33.7666
920.93,       35.68457
921.83,       11.83203
922.73,      -30.09668
923.63,      -72.33105
924.54,      -87.10742
925.44,      -68.23633
926.34,      -24.10645
927.24,       25.64941
928.14,       49.80859
929.05,       41.55371
929.95,       10.76465
930.85,      -22.66309
931.76,      -26.54541
932.66,       5.077148
933.56,       58.38965
934.47,         114.71
935.37,       145.0088
936.28,            141
937.18,       113.7031
938.08,       70.53613
938.99,       23.10645
939.90,       -21.6377
940.80,        -66.375
941.71,      -102.3984
942.61,      -116.0498
943.52,      -105.5371
944.43,      -72.86523
945.33,      -32.74023
946.24,      -10.31738
947.15,      -11.81641
948.05,      -31.77344
948.96,      -55.33398
949.87,      -57.57813
950.78,      -32.87598
951.69,       10.79004
952.59,       57.55957
953.50,       82.71191
954.41,        80.2041
955.32,       57.46387
956.23,       30.30664
957.14,        23.5791
958.05,       42.93457
958.96,       80.38672
959.87,       119.2695
960.78,       133.5039
961.69,       117.1133
962.60,       78.62451
963.51,       34.88281
964.42,       12.31787
965.34,       17.51367
966.25,         42.375
967.16,       71.67529
968.07,       81.21777
968.99,       65.32227
969.90,       32.42871
970.81,      -3.585938
971.72,      -21.08691
972.64,      -14.72754
973.55,       7.696289
974.46,       34.97363
975.38,       49.90332
976.29,       47.35059
977.21,       32.92188
978.12,       14.02832
979.04,       1.666016
979.95,      0.1865234
980.87,        7.80957
981.78,       19.42285
982.70,       27.45703
983.61,       29.74902
984.53,       26.63672
985.45,       27.24316
986.36,       45.95703
987.28,       83.01758
988.20,       132.4248
989.11,       173.7129
990.03,       174.9521
990.95,       131.1494
991.87,       53.80176
992.79,      -31.54883
993.70,      -83.85449
994.62,       -92.4082
995.54,      -69.22168
996.46,      -32.45605
997.38,       -12.4707
998.30,       -17.9248
999.22,      -37.82959
