SpectraSmart Spectrum 2.10.0.0
--------- Device Information -----------
Spectrum Name : ,光譜_0
Saving Time : ,2025/05/24 12:40:42
Spectro-Module Model Name :,
Spectro-Module Serial Number :,OS361AC55003443
Wavelength Start :,300
Wavelength End :,1000
Wavelength Unit :,Wavelength(nm)
Spectrum Unit :,Intensity(Counts)
MB Temperature(°C) :,NA
TEC Temperature(°C) :,NA
-----------Spectrum Setting ------------
Integration Time :,800ms
Average :,1
Boxcar :,0
Background removal :, enabled
linearity correction :, enabled
SC :, disabled
Intensity correction :, disabled
DWT denoise :, enabled
savitzky-golay :, disabled
FFT :, disabled
Running average :, disabled
Kalman :, disabled
High pass :, disabled
---------------BEGIN--------------------
Wavelength(nm)      ,   Intensity(Counts)
300.27,      -30.85742
300.89,       26.88574
301.51,       105.5156
302.13,       182.9814
302.75,       225.0068
303.37,       222.4922
303.99,       186.6338
304.62,       130.3193
305.24,       74.81299
305.86,       30.42969
306.48,      -6.047852
307.11,      -30.58105
307.73,      -37.50684
308.36,         -27.25
308.98,      -1.069336
309.61,       34.08008
310.23,       65.19531
310.86,       87.16992
311.48,       101.6738
312.11,       107.5615
312.74,       104.5713
313.36,       94.74414
313.99,       78.76465
314.62,       63.06543
315.25,       58.94336
315.88,       67.66992
316.51,       83.83203
317.14,       102.6104
317.77,       115.4443
318.40,       118.7871
319.03,       116.7813
319.66,       103.0503
320.29,       67.62109
320.93,       12.41016
321.56,      -58.13379
322.19,      -122.7617
322.83,       -147.751
323.46,      -126.7461
324.10,      -69.60059
324.73,      -1.078125
325.37,       38.16309
326.00,       37.05225
326.64,       6.438477
327.27,      -34.51074
327.91,      -54.51855
328.55,      -44.42188
329.19,      -13.21289
329.83,       24.20215
330.46,       45.04053
331.10,       43.13721
331.74,       24.66895
332.38,        5.47168
333.02,       9.922852
333.66,        41.7627
334.31,       92.07129
334.95,       137.7358
335.59,       142.7368
336.23,       100.8579
336.87,       25.49219
337.52,      -56.50488
338.16,       -102.377
338.81,      -101.4082
339.45,      -67.38184
340.09,      -19.53906
340.74,       10.42236
341.39,       13.42529
342.03,       1.673828
342.68,      -17.53809
343.33,      -33.16309
343.97,      -39.98047
344.62,      -43.76563
345.27,      -38.76855
345.92,      -14.36426
346.57,       28.57422
347.22,       86.26758
347.87,       142.1357
348.52,       169.2188
349.17,       161.1709
349.82,       124.6055
350.47,        75.8252
351.12,       42.05371
351.77,       31.28027
352.43,       37.24512
353.08,        47.7959
353.73,       42.76367
354.39,       18.11816
355.04,      -17.95898
355.70,      -51.91797
356.35,      -63.49121
357.01,      -48.25781
357.66,      -13.83789
358.32,       26.37695
358.98,       51.83301
359.63,       56.40137
360.29,       45.27441
360.95,       27.93262
361.61,        19.8877
362.27,       25.04199
362.93,       38.06543
363.59,       50.43848
364.25,       49.26465
364.91,       31.77344
365.57,       3.301758
366.23,      -26.70703
366.89,      -44.69336
367.55,      -45.71973
368.22,      -31.35156
368.88,      -10.05566
369.54,       4.919922
370.21,       9.544922
370.87,          4.125
371.54,       2.054688
372.20,       24.86621
372.87,       74.08887
373.53,       142.3994
374.20,       201.1904
374.87,       205.6123
375.53,       149.1406
376.20,        47.6748
376.87,      -59.56738
377.54,      -109.8838
378.21,      -88.67773
378.87,      -15.49609
379.54,       75.36719
380.21,       127.8691
380.88,       126.4307
381.56,       89.29443
382.23,        37.0874
382.90,       2.720703
383.57,      -3.360352
384.24,       6.254883
384.92,       24.30371
385.59,       40.89258
386.26,       51.40625
386.94,       60.84473
387.61,       67.12891
388.29,        65.0752
388.96,        54.7666
389.64,       36.87305
390.31,       17.13965
390.99,       6.140625
391.67,       5.975586
392.34,       13.03516
393.02,       22.65283
393.70,       26.95068
394.38,       23.32861
395.06,       14.91113
395.74,       2.380859
396.42,      -13.78125
397.10,      -30.88867
397.78,      -46.77832
398.46,      -57.07031
399.14,      -54.67188
399.82,      -38.59961
400.50,      -13.11719
401.19,       20.94238
401.87,       61.86621
402.55,       106.0898
403.24,        152.751
403.92,       189.4404
404.61,       197.6367
405.29,       174.8242
405.98,       125.7871
406.66,       71.00586
407.35,       43.48047
408.03,       51.60938
408.72,       88.73535
409.41,       132.9365
410.10,       147.8574
410.79,       125.4463
411.47,       75.76855
412.16,       24.08008
412.85,        11.2041
413.54,       43.78613
414.23,       105.6484
414.92,       167.2275
415.61,       181.7119
416.31,       139.9063
417.00,       62.06738
417.69,      -28.05371
418.38,       -93.2876
419.08,      -120.3428
419.77,      -121.7871
420.46,      -98.21973
421.16,      -50.60645
421.85,       13.63574
422.55,       92.55078
423.24,       163.8926
423.94,       191.6377
424.64,       168.8613
425.33,       105.3252
426.03,       25.04639
426.73,       -31.4082
427.42,      -50.38965
428.12,      -39.74219
428.82,      -11.41113
429.52,       13.83594
430.22,       28.81836
430.92,        38.4209
431.62,       51.42773
432.32,       80.67285
433.02,       126.8975
433.72,       183.7334
434.43,       232.8057
435.13,       246.9014
435.83,       222.4385
436.53,       169.6689
437.24,        114.623
437.94,       98.54395
438.65,       131.0859
439.35,       199.5957
440.06,        280.833
440.76,       336.9883
441.47,       356.7344
442.17,       350.7334
442.88,       333.3877
443.59,       327.4844
444.29,       340.5215
445.00,       365.9238
445.71,       393.4844
446.42,       408.5835
447.13,       406.9004
447.84,       391.1816
448.55,       374.6094
449.26,       377.4307
449.97,       401.6143
450.68,       440.0205
451.39,       467.9683
452.10,       446.8481
452.82,       371.1069
453.53,       255.5122
454.24,       133.2959
454.95,       56.80957
455.67,        40.1123
456.38,        69.2373
457.10,       118.2324
457.81,       144.3105
458.53,       134.9971
459.24,       102.5322
459.96,       65.02539
460.68,        51.0127
461.39,        67.4502
462.11,       103.5186
462.83,       142.0615
463.55,       157.6865
464.27,       144.5488
464.98,       111.3525
465.70,       75.26563
466.42,        63.0249
467.14,       80.09863
467.86,       116.4131
468.58,       155.0615
469.31,       169.3799
470.03,       152.9883
470.75,       115.9922
471.47,       70.08105
472.20,       33.85742
472.92,       13.43848
473.64,       2.118164
474.37,      -1.131836
475.09,       1.638672
475.82,        8.99707
476.54,       24.92969
477.27,       40.86035
477.99,        42.2627
478.72,        27.1084
479.45,      -3.443359
480.17,      -30.32813
480.90,      -22.02637
481.63,       25.58691
482.36,       102.3896
483.09,       177.2412
483.81,       200.5073
484.54,       162.1909
485.27,       77.93848
486.00,      -17.25684
486.73,      -67.24512
487.47,      -57.67188
488.20,      -4.860352
488.93,       61.57031
489.66,       93.76172
490.39,       79.30176
491.13,        33.8291
491.86,      -19.01563
492.59,      -42.12891
493.33,      -26.53516
494.06,        13.7002
494.80,       59.85156
495.53,       83.01953
496.27,       76.48926
497.00,       52.93555
497.74,       24.37207
498.48,       9.169922
499.22,        12.8916
499.95,       26.38672
500.69,       49.83008
501.43,       84.07813
502.17,       125.8027
502.91,       175.9502
503.65,       217.1733
504.39,       221.7104
505.13,       185.5396
505.87,       114.8545
506.61,       38.47949
507.35,       4.053711
508.09,       20.84277
508.83,        75.0918
509.58,       133.5947
510.32,        141.251
511.06,       88.05762
511.81,      -3.400391
512.55,      -101.7842
513.30,      -157.1035
514.04,      -156.2207
514.79,      -119.9238
515.53,      -59.86523
516.28,       5.543945
517.02,       65.35059
517.77,       127.3096
518.52,        171.291
519.27,       164.6602
520.01,       106.3164
520.76,       5.033203
521.51,      -95.41699
522.26,      -123.0127
523.01,      -63.33789
523.76,       62.46875
524.51,       205.7529
525.26,       286.6846
526.01,       284.2168
526.76,       221.3896
527.51,       136.1328
528.27,        89.9375
529.02,       99.98047
529.77,       146.5645
530.52,       202.5771
531.28,        226.043
532.03,       206.3379
532.79,       159.3613
533.54,       107.2979
534.30,       83.44922
535.05,       95.29883
535.81,        129.001
536.56,       165.7598
537.32,       177.1563
538.08,       155.6494
538.83,       112.3896
539.59,       58.61621
540.35,       11.44336
541.11,      -21.93164
541.87,      -46.02051
542.63,      -59.96484
543.39,      -62.62207
544.15,      -54.74805
544.91,      -34.97559
545.67,      -9.197266
546.43,        12.0625
547.19,       25.60254
547.95,       31.51855
548.71,       36.27832
549.48,       51.48193
550.24,       78.86719
551.00,       114.5322
551.77,       146.8008
552.53,       158.0313
553.29,       144.1455
554.06,       109.0215
554.82,       68.20898
555.59,       46.42871
556.36,       49.32031
557.12,        71.8623
557.89,       94.39063
558.66,       84.39063
559.42,       37.95264
560.19,      -31.36963
560.96,      -95.85254
561.73,      -111.6377
562.50,      -70.19629
563.27,       10.61914
564.04,        107.375
564.81,       182.7998
565.58,       224.6924
566.35,       246.0889
567.12,       251.2666
567.89,       247.1484
568.66,       242.3682
569.43,       237.8662
570.21,       252.6523
570.98,        316.458
571.75,       436.5059
572.53,       608.8867
573.30,       813.9316
574.07,       1016.342
574.85,       1206.725
575.62,       1393.175
576.40,       1591.221
577.17,       1827.424
577.95,       2104.763
578.73,       2407.316
579.50,       2715.129
580.28,       3000.099
581.06,       3249.996
581.84,       3467.105
582.62,       3654.882
583.39,       3821.784
584.17,       3968.624
584.95,       4088.923
585.73,       4178.128
586.51,       4230.851
587.29,       4248.093
588.07,       4237.625
588.86,       4205.243
589.64,       4157.558
590.42,       4101.122
591.20,       4039.442
591.98,       3981.815
592.77,       3940.096
593.55,       3917.473
594.33,       3912.387
595.12,       3914.411
595.90,       3907.119
596.69,       3883.409
597.47,       3841.446
598.26,       3792.623
599.04,       3757.673
599.83,       3744.716
600.62,       3752.378
601.40,       3759.823
602.19,       3748.413
602.98,       3708.527
603.77,       3637.199
604.55,       3633.017
605.34,       3825.302
606.13,       4330.017
606.92,       5229.781
607.71,       6291.611
608.50,       7401.987
609.29,       8484.542
610.08,       8633.069
610.87,        8482.23
611.67,       10749.56
612.46,       14548.92
613.25,       15955.07
614.04,       14563.17
614.84,       12182.63
615.63,        9524.84
616.42,       7396.843
617.22,        6117.27
618.01,        4893.38
618.81,       3808.891
619.60,       3799.448
620.40,       4567.324
621.19,       4948.887
621.99,       4832.278
622.78,       4661.242
623.58,       4497.218
624.38,       4656.586
625.18,        4989.11
625.97,       4843.952
626.77,       5263.684
627.57,       7303.386
628.37,       11536.63
629.17,       20318.56
629.97,       30468.78
630.77,       33263.38
631.57,       28926.69
632.37,       23547.16
633.17,       19560.62
633.97,       19350.83
634.77,       21642.52
635.58,       19491.39
636.38,       13019.47
637.18,       8173.661
637.98,       5808.109
638.79,       4176.385
639.59,       3032.525
640.40,       1892.037
641.20,       700.9458
642.00,       314.3506
642.81,       788.5122
643.62,       1542.067
644.42,       2442.511
645.23,       3602.774
646.03,       4718.836
646.84,       5286.572
647.65,       5198.202
648.46,       4562.809
649.26,       3621.058
650.07,       2802.735
650.88,       2262.048
651.69,       1915.107
652.50,       1700.663
653.31,       1496.467
654.12,       1263.661
654.93,       1072.037
655.74,       935.6729
656.55,       849.3164
657.36,       806.5908
658.17,       779.1777
658.98,       748.1743
659.80,         703.52
660.61,       640.5273
661.42,       562.5874
662.23,       478.1685
663.05,       402.0361
663.86,       342.1211
664.68,       297.2217
665.49,       274.4297
666.31,       283.1084
667.12,       321.5166
667.94,       384.1689
668.75,       454.3027
669.57,       504.8496
670.39,       526.5898
671.20,       523.2744
672.02,       501.4268
672.84,       474.6992
673.66,       447.8701
674.47,        416.959
675.29,       382.4385
676.11,       344.5576
676.93,       305.6016
677.75,       271.8525
678.57,       242.4951
679.39,       214.2393
680.21,        186.999
681.03,       158.5596
681.85,       140.0752
682.68,       149.5498
683.50,       186.8076
684.32,        245.498
685.14,       297.3916
685.96,       297.6768
686.79,       240.0146
687.61,       140.4463
688.44,       36.20996
689.26,      -12.39844
690.08,       8.697266
690.91,       79.27148
691.73,       170.5552
692.56,       235.2876
693.39,       258.5435
694.21,       255.9512
695.04,        235.626
695.87,       210.9053
696.69,       188.3135
697.52,       159.9932
698.35,       135.5059
699.18,       132.2305
700.00,       151.4033
700.83,       190.4053
701.66,       227.3936
702.49,       225.5322
703.32,       178.1494
704.15,       96.39893
704.98,       8.370117
705.81,      -40.76514
706.64,      -39.22461
707.47,       1.263672
708.31,       54.96875
709.14,         80.375
709.97,       66.58008
710.80,       24.77832
711.64,      -20.30078
712.47,      -29.33496
713.30,       5.324219
714.14,       69.68262
714.97,       134.6826
715.81,       154.7944
716.64,       121.6943
717.48,       53.60938
718.31,      -19.43457
719.15,      -50.28223
719.98,       -26.9375
720.82,       33.04004
721.66,       110.7754
722.49,       176.6621
723.33,        218.043
724.17,       242.1221
725.01,       247.2725
725.84,       231.1318
726.68,       196.2588
727.52,       143.1416
728.36,       81.91016
729.20,       30.46924
730.04,      -5.092773
730.88,      -26.18018
731.72,      -36.33447
732.56,      -44.26709
733.40,      -52.18506
734.25,      -56.02197
735.09,      -55.56396
735.93,      -50.77148
736.77,      -42.09766
737.61,      -32.89844
738.46,      -20.52637
739.30,      0.5009766
740.14,       29.62891
740.99,       65.05762
741.83,       96.24902
742.68,       106.5474
743.52,       93.84033
744.37,       63.77881
745.21,       31.96484
746.06,        23.5918
746.90,       43.99512
747.75,       84.76758
748.60,       131.1768
749.44,       159.2998
750.29,       162.2773
751.14,       147.6006
751.99,       123.3916
752.84,       102.8398
753.68,       90.62598
754.53,       82.29004
755.38,        76.5791
756.23,       71.76953
757.08,       67.24023
757.93,       65.61328
758.78,       65.11035
759.63,       61.85742
760.48,       55.18945
761.33,        44.7207
762.19,       35.25098
763.04,       35.07324
763.89,       44.85156
764.74,       61.65527
765.59,        76.1875
766.45,        73.7207
767.30,       51.68359
768.15,       15.24512
769.01,      -24.46777
769.86,      -49.75684
770.72,      -55.70703
771.57,      -47.08203
772.43,      -32.28418
773.28,      -24.96094
774.14,      -29.31543
774.99,      -41.72559
775.85,      -55.96387
776.71,      -62.45996
777.56,      -58.67383
778.42,      -47.18262
779.28,      -35.23633
780.14,      -33.88672
780.99,      -44.87109
781.85,      -64.56543
782.71,      -81.99121
783.57,      -79.84668
784.43,      -55.55859
785.29,      -15.86719
786.15,       25.24512
787.01,       45.60449
787.87,       39.92676
788.73,       15.66016
789.59,      -16.49707
790.45,      -39.05859
791.31,      -46.55371
792.18,      -44.68164
793.04,       -36.7251
793.90,      -28.21533
794.76,      -21.27539
795.63,      -12.19824
796.49,      -3.806641
797.35,      -1.447266
798.22,      -5.335938
799.08,       -15.3291
799.95,       -22.8877
800.81,      -13.63086
801.68,       14.23242
802.54,       55.75879
803.41,       97.03516
804.27,       116.1494
805.14,       107.5254
806.00,       76.53271
806.87,       37.25293
807.74,       12.30469
808.61,       8.208984
809.47,       20.45215
810.34,       34.95801
811.21,       29.18652
812.08,      -1.244141
812.95,      -49.49219
813.82,      -94.98926
814.68,      -106.0303
815.55,      -76.51953
816.42,      -15.78711
817.29,       48.53516
818.16,       72.69238
819.04,       47.49414
819.91,      -14.21191
820.78,      -80.67383
821.65,      -100.7344
822.52,      -63.68945
823.39,       12.85547
824.27,       96.29102
825.14,       134.9141
826.01,       115.9834
826.88,       57.30957
827.76,       -15.0249
828.63,      -60.15039
829.50,      -65.23535
830.38,      -42.37939
831.25,       -6.10791
832.13,       21.05762
833.00,       31.41992
833.88,       31.45996
834.75,       30.10254
835.63,       40.27441
836.51,       64.30078
837.38,       96.87891
838.26,       125.2178
839.14,       130.2129
840.01,       109.7246
840.89,       71.91992
841.77,       34.44727
842.65,       25.36719
843.53,       49.78809
844.40,       95.72559
845.28,        148.291
846.16,       183.6641
847.04,        193.582
847.92,       186.3975
848.80,       162.1504
849.68,        121.002
850.56,       68.10742
851.44,       5.227539
852.32,      -51.25977
853.21,      -74.98145
854.09,      -61.20117
854.97,      -17.52051
855.85,       37.96875
856.73,       74.73291
857.62,       83.15039
858.50,        70.2749
859.38,       44.87207
860.26,        22.4248
861.15,       8.191406
862.03,      -2.826172
862.92,      -13.17773
863.80,      -26.57227
864.69,      -42.75977
865.57,      -56.81445
866.46,      -66.45898
867.34,      -69.48047
868.23,      -65.84473
869.11,      -59.45801
870.00,      -48.63867
870.89,      -29.90234
871.77,      -5.515625
872.66,       22.43066
873.55,       41.03516
874.43,       29.84863
875.32,      -12.27148
876.21,      -75.85156
877.10,      -141.4463
877.99,      -177.7002
878.88,      -176.7656
879.77,      -149.4922
880.65,      -105.9873
881.54,      -63.75391
882.43,      -30.41211
883.32,        0.15625
884.21,       20.37598
885.10,       18.50586
886.00,      -4.817383
886.89,       -47.8291
887.78,      -89.07129
888.67,      -92.07422
889.56,      -50.34863
890.45,        23.9707
891.35,       103.5586
892.24,       149.1621
893.13,       151.0889
894.02,         106.29
894.92,       35.93457
895.81,       15.38965
896.71,       36.30859
897.60,      -3.236328
898.49,      -85.79297
899.39,      -101.6172
900.28,      -45.78125
901.18,        23.7998
902.07,       84.16016
902.97,       121.4209
903.87,       127.4063
904.76,       106.2305
905.66,       74.00977
906.55,       58.84668
907.45,       67.47656
908.35,       88.62793
909.25,       115.4229
910.14,       136.7158
911.04,       147.3916
911.94,       153.6201
912.84,        147.624
913.74,       115.7188
914.63,       59.38672
915.53,      -15.59277
916.43,       -86.1875
917.33,      -115.8818
918.23,      -96.14844
919.13,      -35.99512
920.03,       40.50977
920.93,       93.87793
921.83,       111.8301
922.73,       101.4023
923.63,       82.15234
924.54,       86.55859
925.44,       121.0781
926.34,       175.0732
927.24,       221.8096
928.14,       220.1826
929.05,        163.728
929.95,       68.08398
930.85,      -30.23584
931.76,      -74.76465
932.66,       -51.9668
933.56,       21.84473
934.47,       111.0283
935.37,       158.3691
936.28,       148.2217
937.18,        95.5459
938.08,       30.72217
938.99,       2.905762
939.90,        23.0293
940.80,       74.31641
941.71,       125.9141
942.61,       129.3223
943.52,       76.27832
944.43,      -11.51953
945.33,      -102.3584
946.24,      -147.4443
947.15,      -133.9668
948.05,      -80.80371
948.96,      -4.725586
949.87,       67.98438
950.78,       124.2432
951.69,       170.1299
952.59,       196.3975
953.50,       188.9326
954.41,       147.8799
955.32,       76.12109
956.23,      -5.549805
957.14,      -61.86621
958.05,      -82.93457
958.96,      -74.54395
959.87,      -53.53711
960.78,      -50.01172
961.69,      -70.76953
962.60,      -105.5752
963.51,      -138.4883
964.42,      -144.3867
965.34,      -118.5908
966.25,       -72.8623
967.16,      -22.31689
968.07,       10.68652
968.99,       18.87109
969.90,       9.400391
970.81,      -10.96191
971.72,      -32.17969
972.64,      -47.86816
973.55,       -57.8457
974.46,      -61.52246
975.38,      -57.06348
976.29,      -45.81348
977.21,       -32.6582
978.12,      -11.86133
979.04,       24.56934
979.95,       74.53906
980.87,       137.1104
981.78,       183.7217
982.70,        169.374
983.61,       90.76953
984.53,      -36.14551
985.45,      -159.6768
986.36,      -196.6182
987.28,      -131.2969
988.20,       7.570313
989.11,       165.6113
990.03,       254.6797
990.95,       250.1592
991.87,       179.3525
992.79,       74.72754
993.70,       -10.9502
994.62,      -57.94141
995.54,      -81.14941
996.46,      -86.91699
997.38,      -84.53906
998.30,      -78.37646
999.22,      -61.97754
