SpectraSmart Spectrum 2.10.0.0
--------- Device Information -----------
Spectrum Name : ,光譜_0
Saving Time : ,2025/05/24 14:06:11
Spectro-Module Model Name :,
Spectro-Module Serial Number :,OS361AC55003443
Wavelength Start :,300
Wavelength End :,1000
Wavelength Unit :,Wavelength(nm)
Spectrum Unit :,Intensity(Counts)
MB Temperature(°C) :,NA
TEC Temperature(°C) :,NA
-----------Spectrum Setting ------------
Integration Time :,800ms
Average :,1
Boxcar :,0
Background removal :, enabled
linearity correction :, enabled
SC :, disabled
Intensity correction :, disabled
DWT denoise :, enabled
savitzky-golay :, disabled
FFT :, disabled
Running average :, disabled
Kalman :, disabled
High pass :, disabled
---------------BEGIN--------------------
Wavelength(nm)      ,   Intensity(Counts)
300.27,       39.18408
300.89,       47.15918
301.51,       45.97559
302.13,       42.49316
302.75,       46.85547
303.37,        60.8418
303.99,       80.61035
304.62,       95.18359
305.24,       88.22656
305.86,       57.84961
306.48,       10.47852
307.11,      -36.98682
307.73,      -57.95508
308.36,      -46.94043
308.98,      -12.63721
309.61,       28.50439
310.23,       49.44922
310.86,       43.59326
311.48,       21.05469
312.11,      -7.456055
312.74,      -25.09619
313.36,      -25.56055
313.99,      -14.73438
314.62,       6.610352
315.25,       38.09521
315.88,       76.03223
316.51,       117.9468
317.14,       156.1426
317.77,       178.4077
318.40,        180.731
319.03,       165.3877
319.66,       134.6821
320.29,       93.53516
320.93,       46.67773
321.56,      -3.491699
322.19,      -50.65234
322.83,       -85.8125
323.46,       -106.001
324.10,      -112.3506
324.73,      -106.1138
325.37,      -91.28516
326.00,       -70.4248
326.64,      -42.96729
327.27,      -15.35938
327.91,       3.088867
328.55,       9.922852
329.19,       4.507324
329.83,      -3.321289
330.46,       3.600098
331.10,       27.70508
331.74,       64.07324
332.38,       96.27246
333.02,       97.75879
333.66,       64.49365
334.31,       6.616699
334.95,      -55.06396
335.59,      -87.54785
336.23,      -82.80225
336.87,      -51.60303
337.52,      -9.725586
338.16,       17.01367
338.81,       20.90234
339.45,        11.0293
340.09,      -6.299316
340.74,      -21.34814
341.39,      -29.56982
342.03,      -35.11182
342.68,      -35.46045
343.33,       -25.0293
343.97,      -5.225098
344.62,       20.73926
345.27,       46.01465
345.92,       58.29004
346.57,       55.53223
347.22,       44.57031
347.87,       25.79004
348.52,      0.6904297
349.17,      -27.56934
349.82,      -61.34473
350.47,      -83.27637
351.12,      -66.10742
351.77,      -7.981445
352.43,       83.41504
353.08,       172.1533
353.73,       200.2104
354.39,       156.9453
355.04,       59.82422
355.70,      -47.41992
356.35,      -93.30322
357.01,      -61.63379
357.66,       24.12207
358.32,       125.0957
358.98,       178.4238
359.63,       167.3799
360.29,       114.1299
360.95,       43.00781
361.61,       -7.92627
362.27,      -25.62012
362.93,      -23.49609
363.59,      -7.703125
364.25,        13.3584
364.91,        34.3623
365.57,       59.06543
366.23,       81.61719
366.89,       91.09375
367.55,       85.02979
368.22,       64.06396
368.88,       35.79004
369.54,       13.92578
370.21,       3.057617
370.87,       2.083984
371.54,       4.115234
372.20,       -2.53125
372.87,      -19.90234
373.53,      -44.87646
374.20,      -64.67041
374.87,      -59.64453
375.53,      -27.15723
376.20,       26.40234
376.87,       80.25635
377.54,       101.4863
378.21,       83.98633
378.87,       38.32324
379.54,      -11.28662
380.21,      -25.43555
380.88,       4.250977
381.56,       63.38623
382.23,       130.9839
382.90,       173.2007
383.57,       180.6626
384.24,       165.9922
384.92,       137.8076
385.59,        110.125
386.26,       88.75488
386.94,       66.50195
387.61,       50.73633
388.29,       53.76709
388.96,        76.0459
389.64,       117.4199
390.31,       156.0391
390.99,       155.4795
391.67,       110.3247
392.34,       30.64502
393.02,       -49.6123
393.70,      -75.09033
394.38,      -35.25586
395.06,       51.56006
395.74,       147.2686
396.42,       190.3867
397.10,       166.4082
397.78,       96.55566
398.46,       11.57861
399.14,      -39.51611
399.82,        -41.854
400.50,      -11.68945
401.19,       35.99121
401.87,       78.26221
402.55,       105.2168
403.24,        123.166
403.92,        133.666
404.61,       137.6982
405.29,       136.9365
405.98,       131.3223
406.66,       119.7637
407.35,       102.0176
408.03,       81.28076
408.72,       60.64014
409.41,       51.69434
410.10,       71.68018
410.79,       121.7075
411.47,       193.4492
412.16,       270.7607
412.85,       327.9385
413.54,       356.8042
414.23,       364.0718
414.92,       355.6309
415.61,       342.1074
416.31,       330.0781
417.00,       318.9102
417.69,       314.7046
418.38,       326.7456
419.08,       357.3281
419.77,       405.4512
420.46,       466.2754
421.16,       530.4409
421.85,       593.4297
422.55,       655.0771
423.24,        714.752
423.94,       772.6367
424.64,       829.2598
425.33,       885.5825
426.03,       941.9775
426.73,       998.8301
427.42,       1060.446
428.12,       1132.463
428.82,       1223.147
429.52,       1344.277
430.22,       1498.775
430.92,       1681.887
431.62,       1893.004
432.32,        2130.29
433.02,       2390.895
433.72,       2677.533
434.43,       2979.767
435.13,       3279.139
435.83,       3580.819
436.53,       3902.159
437.24,       4271.541
437.94,       4731.513
438.65,       5295.668
439.35,       5952.906
440.06,       6696.736
440.76,       7511.377
441.47,       8384.201
442.17,       9313.818
442.88,       10265.97
443.59,       11191.84
444.29,       12066.77
445.00,       12866.62
445.71,       13614.46
446.42,       14366.65
447.13,       15103.57
447.84,       15769.44
448.55,       16262.05
449.26,       16431.96
449.97,       16248.19
450.68,       15769.57
451.39,       15079.66
452.10,       14311.35
452.82,       13534.39
453.53,        12751.7
454.24,       11991.29
454.95,       11277.45
455.67,       10626.15
456.38,       10062.65
457.10,       9579.275
457.81,       9143.807
458.53,       8744.497
459.24,       8377.795
459.96,       8048.633
460.68,       7772.212
461.39,       7540.879
462.11,       7333.604
462.83,       7118.059
463.55,       6851.363
464.27,        6521.98
464.98,       6140.897
465.70,       5734.021
466.42,       5344.289
467.14,       4988.187
467.86,        4661.06
468.58,       4352.241
469.31,       4041.301
470.03,        3725.64
470.75,       3416.375
471.47,       3131.966
472.20,       2897.749
472.92,        2718.18
473.64,       2584.034
474.37,       2470.741
475.09,       2340.584
475.82,       2183.844
476.54,       2008.848
477.27,       1840.025
477.99,       1717.941
478.72,       1650.236
479.45,       1622.072
480.17,       1604.963
480.90,       1554.275
481.63,       1459.532
482.36,       1335.677
483.09,       1206.999
483.81,       1112.374
484.54,       1061.463
485.27,       1039.287
486.00,         1029.1
486.73,       1005.299
487.47,       958.6089
488.20,       897.2002
488.93,         825.04
489.66,       747.6665
490.39,       669.8008
491.13,       591.6216
491.86,       518.0381
492.59,        456.918
493.33,       412.3442
494.06,       385.8857
494.80,       377.9072
495.53,       387.2695
496.27,        410.959
497.00,       444.7251
497.74,       486.0005
498.48,         531.27
499.22,       577.2642
499.95,       623.9902
500.69,       660.6431
501.43,       672.2046
502.17,       657.5625
502.91,       620.1138
503.65,       583.8525
504.39,       586.6934
505.13,       636.6963
505.87,       726.0723
506.61,       822.1606
507.35,       871.4429
508.09,       862.8481
508.83,       810.8228
509.58,       755.5166
510.32,       762.1279
511.06,       842.1348
511.81,        971.209
512.55,       1102.625
513.30,       1162.524
514.04,       1133.946
514.79,       1043.514
515.53,        928.749
516.28,       849.5059
517.02,       824.3662
517.77,       833.5938
518.52,       863.1182
519.27,       890.4375
520.01,       905.5234
520.76,       917.9727
521.51,       921.3623
522.26,        903.168
523.01,        863.707
523.76,       804.9219
524.51,       743.9961
525.26,       710.9248
526.01,       711.9326
526.76,       738.2646
527.51,       772.8457
528.27,       787.2456
529.02,       773.0322
529.77,       738.2539
530.52,       692.9697
531.28,       653.3984
532.03,       625.4399
532.79,       605.0537
533.54,       587.9053
534.30,       567.3208
535.05,       542.6694
535.81,       518.3198
536.56,       500.9082
537.32,       499.5947
538.08,        515.395
538.83,       543.2495
539.59,        574.999
540.35,       598.5952
541.11,       609.3657
541.87,       609.1895
542.63,       601.2051
543.39,        590.814
544.15,       581.1641
544.91,       573.0605
545.67,       565.1089
546.43,       555.1406
547.19,       543.6846
547.95,       531.1147
548.71,       526.1846
549.48,       542.0415
550.24,       578.7446
551.00,       630.8257
551.77,       679.1855
552.53,       693.7666
553.29,       668.7158
554.06,       613.1416
554.82,       547.9355
555.59,       507.6543
556.36,       500.7188
557.12,       515.8638
557.89,       537.8848
558.66,        541.626
559.42,       520.4961
560.19,       485.4272
560.96,       442.5522
561.73,       400.9307
562.50,       365.2607
563.27,       330.9644
564.04,       305.3188
564.81,       300.6299
565.58,       316.9033
566.35,       351.0898
567.12,       384.9785
567.89,        388.542
568.66,       356.1948
569.43,       296.7173
570.21,       231.4727
570.98,        195.877
571.75,        198.064
572.53,       226.0654
573.30,       262.4175
574.07,       278.7847
574.85,       267.3911
575.62,       239.1411
576.40,       202.7554
577.17,       171.3589
577.95,       151.0977
578.73,       137.9644
579.50,       134.6899
580.28,       146.0854
581.06,       171.3364
581.84,       208.6577
582.62,       249.3145
583.39,       279.2236
584.17,       292.6182
584.95,       288.9644
585.73,       273.2979
586.51,       255.4253
587.29,       238.0088
588.07,       220.3228
588.86,       193.7998
589.64,       144.5391
590.42,       73.50635
591.20,      -10.93066
591.98,      -87.60938
592.77,      -124.6416
593.55,      -115.3027
594.33,         -69.25
595.12,      -7.866699
595.90,       33.70557
596.69,       45.43018
597.47,       36.63867
598.26,       20.77051
599.04,       20.59229
599.83,       41.73145
600.62,       74.09717
601.40,       109.1392
602.19,       134.8643
602.98,       146.5425
603.77,       148.5952
604.55,       142.3569
605.34,       128.7402
606.13,       110.4141
606.92,       88.95313
607.71,       67.17822
608.50,       50.16211
609.29,        39.1543
610.08,       31.46191
610.87,       29.91699
611.67,       38.16895
612.46,       54.61328
613.25,       78.22656
614.04,       94.56934
614.84,       80.99609
615.63,       34.80371
616.42,      -36.85645
617.22,      -110.6514
618.01,      -148.8994
618.81,       -143.064
619.60,      -103.7275
620.40,      -54.00342
621.19,      -31.93555
621.99,      -46.95654
622.78,      -86.71338
623.58,      -132.1348
624.38,      -153.0693
625.18,      -141.1196
625.97,      -106.4697
626.77,      -62.86426
627.57,       -31.0127
628.37,      -18.05664
629.17,      -19.22852
629.97,      -25.54395
630.77,      -23.04834
631.57,      -9.040527
632.37,       11.53467
633.17,       25.97021
633.97,       15.00732
634.77,      -23.54541
635.58,       -81.2666
636.38,      -139.3843
637.18,      -168.8945
637.98,      -162.8306
638.79,      -129.8193
639.59,       -85.9248
640.40,      -57.67578
641.20,      -52.27686
642.00,      -61.08789
642.81,      -74.38721
643.62,      -76.40576
644.42,      -62.80273
645.23,      -40.98438
646.03,      -14.67334
646.84,       11.42725
647.65,        34.1416
648.46,       55.18213
649.26,       70.36133
650.07,        72.4502
650.88,       61.28516
651.69,       39.53125
652.50,       15.31641
653.31,       1.887695
654.12,        3.17041
654.93,        16.4292
655.74,       36.05908
656.55,       52.42383
657.36,       62.00537
658.17,         66.229
658.98,       68.13623
659.80,       72.99219
660.61,       80.98682
661.42,       88.99805
662.23,       91.18994
663.05,       78.98535
663.86,       51.75488
664.68,       14.55859
665.49,       -24.9248
666.31,      -55.35742
667.12,      -72.13477
667.94,      -77.08594
668.75,      -72.27051
669.57,      -61.23535
670.39,      -47.33887
671.20,      -32.65186
672.02,      -17.68701
672.84,       -3.50293
673.66,       9.144531
674.47,        22.2334
675.29,       27.41992
676.11,       12.30957
676.93,      -22.47852
677.75,       -72.9707
678.57,      -115.3105
679.39,      -111.9175
680.21,      -57.23438
681.03,       36.56055
681.85,       135.0918
682.68,       183.3115
683.50,       167.5698
684.32,       102.4683
685.14,       20.21436
685.96,      -26.51855
686.79,      -23.75977
687.61,       13.73535
688.44,       58.36426
689.26,       65.88379
690.08,       26.85107
690.91,      -41.91553
691.73,      -112.0288
692.56,      -140.2134
693.39,        -116.21
694.21,      -55.38867
695.04,       16.82178
695.87,       61.09424
696.69,       65.79883
697.52,       41.86914
698.35,        7.00293
699.18,      -10.55078
700.00,      -3.148438
700.83,       20.12256
701.66,       44.53076
702.49,       47.44629
703.32,       24.65137
704.15,      -14.12305
704.98,      -52.63184
705.81,      -66.35596
706.64,      -49.79688
707.47,      -12.15771
708.31,       32.81787
709.14,       63.41602
709.97,       73.17285
710.80,       69.09277
711.64,       57.02344
712.47,       46.79443
713.30,       41.58252
714.14,       36.04053
714.97,       31.66455
715.81,       31.62549
716.64,       35.42432
717.48,       44.34766
718.31,       49.47754
719.15,       35.28125
719.98,      0.9570313
720.82,       -47.3457
721.66,      -93.10791
722.49,      -109.7017
723.33,      -91.97461
724.17,       -49.8252
725.01,       1.307617
725.84,       36.58691
726.68,       47.72119
727.52,        41.7002
728.36,       23.66113
729.20,       2.034668
730.04,      -17.93066
730.88,      -37.20508
731.72,      -52.50684
732.56,      -58.07324
733.40,      -52.77832
734.25,       -38.1958
735.09,       -14.8042
735.93,       15.17236
736.77,       48.81152
737.61,       85.27295
738.46,       115.3818
739.30,       125.6846
740.14,       113.8838
740.99,       82.67529
741.83,       45.70361
742.68,       25.64551
743.52,        27.7417
744.37,       46.63379
745.21,       67.74463
746.06,       66.65771
746.90,       38.91797
747.75,      -6.099609
748.60,       -52.7168
749.44,      -76.08691
750.29,      -70.71973
751.14,      -46.66113
751.99,      -14.88281
752.84,       7.082031
753.68,       13.73242
754.53,       12.64307
755.38,       3.680664
756.23,      -13.44043
757.08,      -36.12646
757.93,        -66.104
758.78,      -89.91113
759.63,        -85.125
760.48,      -49.74805
761.33,       9.180664
762.19,       68.02734
763.04,       88.09131
763.89,        61.7417
764.74,       2.160156
765.59,      -66.49902
766.45,      -105.2852
767.30,      -102.6592
768.15,      -69.82813
769.01,      -21.10449
769.86,       20.56152
770.72,       46.24512
771.57,       60.90332
772.43,       70.04199
773.28,       82.01367
774.14,       98.48633
774.99,       115.8945
775.85,       125.1772
776.71,       113.4463
777.56,       80.59863
778.42,       33.47266
779.28,      -10.79395
780.14,      -25.86328
780.99,       -6.62793
781.85,       37.49121
782.71,       89.74365
783.57,       123.0527
784.43,       128.7573
785.29,       114.1313
786.15,       86.43457
787.01,       57.85059
787.87,       33.91992
788.73,       12.02051
789.59,      -7.212402
790.45,      -22.58398
791.31,      -33.15674
792.18,      -37.15332
793.04,      -33.88037
793.90,      -23.30518
794.76,      -7.663574
795.63,       9.291504
796.49,       24.83154
797.35,       35.06641
798.22,       38.93799
799.08,       39.89307
799.95,       33.06104
800.81,       11.14551
801.68,      -24.06055
802.54,      -70.02148
803.41,      -106.7017
804.27,      -102.5342
805.14,       -53.7085
806.00,       28.90479
806.87,       114.9126
807.74,       155.3608
808.61,       138.6489
809.47,        79.0459
810.34,        3.67041
811.21,      -42.89453
812.08,      -48.01514
812.95,      -24.95801
813.82,        8.51123
814.68,       23.95215
815.55,       13.32471
816.42,      -12.78906
817.29,      -42.52539
818.16,      -58.78711
819.04,      -56.23047
819.91,      -40.52539
820.78,      -20.14648
821.65,      -7.425781
822.52,      -5.599121
823.39,      -11.15967
824.27,      -15.22461
825.14,      -3.912598
826.01,        24.2417
826.88,       62.71826
827.76,       98.59131
828.63,       111.9746
829.50,       98.66455
830.38,        66.1167
831.25,       25.44727
832.13,      -5.583984
833.00,      -20.88379
833.88,      -25.15381
834.75,      -21.32227
835.63,      -14.71533
836.51,      -7.723633
837.38,       2.199707
838.26,       12.41992
839.14,       18.31543
840.01,       18.58691
840.89,       12.23438
841.77,       4.455078
842.65,       4.233398
843.53,       13.73145
844.40,       32.38184
845.28,       50.62793
846.16,       53.04932
847.04,       37.24561
847.92,       6.676758
848.80,      -21.68359
849.68,      -20.40625
850.56,       13.87891
851.44,       70.85352
852.32,       125.4624
853.21,       137.7974
854.09,       99.90723
854.97,       26.62256
855.85,      -58.06543
856.73,      -116.0107
857.62,      -134.9165
858.50,       -125.166
859.38,      -97.33643
860.26,      -68.93066
861.15,      -47.39893
862.03,      -28.32471
862.92,      -11.03369
863.80,       4.911133
864.69,       19.00146
865.57,       28.34619
866.46,       30.25781
867.34,       22.58447
868.23,       6.210449
869.11,      -16.20654
870.00,       -38.7627
870.89,      -52.79102
871.77,      -55.81934
872.66,      -49.77148
873.55,      -38.01563
874.43,        -26.875
875.32,      -18.43262
876.21,      -10.61182
877.10,      -3.818359
877.99,       1.679688
878.88,       5.745605
879.77,       6.415527
880.65,       6.858887
881.54,       12.88525
882.43,        24.7627
883.32,       41.17871
884.21,       54.03613
885.10,         50.125
886.00,       28.08008
886.89,      -6.641602
887.78,      -41.70996
888.67,      -57.78027
889.56,      -49.83643
890.45,      -23.37061
891.35,       11.66016
892.24,       39.08643
893.13,       53.30713
894.02,       57.54102
894.92,       57.27832
895.81,        61.6167
896.71,       72.52979
897.60,       86.54785
898.49,       96.67578
899.39,       92.70117
900.28,       73.31152
901.18,       43.00098
902.07,       12.21973
902.97,       -3.30127
903.87,       0.496582
904.76,       19.58887
905.66,       43.51758
906.55,        55.7251
907.45,       51.10645
908.35,       32.58984
909.25,        10.8418
910.14,       2.582031
911.04,       12.13477
911.94,       36.95898
912.84,       61.17236
913.74,       59.70459
914.63,       29.09082
915.53,       -23.3623
916.43,      -69.95605
917.33,      -66.74902
918.23,      -7.251953
919.13,       92.67676
920.03,         195.29
920.93,       240.5034
921.83,       214.7417
922.73,       137.6743
923.63,       43.16699
924.54,      -14.06445
925.44,      -18.21094
926.34,       13.81006
927.24,       62.22461
928.14,       95.38623
929.05,       102.7124
929.95,       94.91113
930.85,       79.62012
931.76,       67.63232
932.66,       62.62451
933.56,        59.3584
934.47,       54.94287
935.37,       46.23535
936.28,       33.63721
937.18,       21.42529
938.08,       12.17822
938.99,       9.220703
939.90,       12.44336
940.80,       16.97168
941.71,       24.73438
942.61,       39.28711
943.52,       58.60547
944.43,       82.17969
945.33,       94.50098
946.24,       70.64258
947.15,       10.05273
948.05,      -75.83887
948.96,      -158.8115
949.87,      -193.7891
950.78,      -171.0742
951.69,      -106.5957
952.59,      -22.76367
953.50,       43.45361
954.41,       78.71582
955.32,       93.31055
956.23,       88.78711
957.14,        68.7915
958.05,       38.05469
958.96,       -5.80127
959.87,      -48.93213
960.78,      -67.95801
961.69,      -57.78564
962.60,      -21.76514
963.51,       22.30762
964.42,       43.82715
965.34,        35.1416
966.25,        3.21875
967.16,      -32.54883
968.07,      -40.78369
968.99,      -14.60742
969.90,       36.84766
970.81,       89.55615
971.72,       105.9067
972.64,       78.24609
973.55,       17.96729
974.46,      -45.69141
975.38,      -66.04639
976.29,      -34.24561
977.21,        33.1875
978.12,       104.0938
979.04,       127.0313
979.95,       90.90625
980.87,       15.66309
981.78,      -72.42773
982.70,      -131.7822
983.61,      -149.3838
984.53,      -139.7891
985.45,      -110.6753
986.36,      -74.13818
987.28,      -37.86377
988.20,       2.601563
989.11,       35.92676
990.03,       42.82715
990.95,       21.43457
991.87,      -23.61328
992.79,       -73.0791
993.70,      -94.25098
994.62,      -79.19434
995.54,      -36.95801
996.46,       15.68262
997.38,       51.04834
998.30,       60.20654
999.22,       49.77783
